Wavelength,Absorption
350,-0.041499
351,0.02075
352,0.083
353,0.084257
354,0.0842
355,0.083693
356,0.0836
357,0.086821
358,0.0878
359,0.087829
360,0.0882
361,0.088721
362,0.0888
363,0.089279
364,0.091
365,0.093114
366,0.0942
367,0.094836
368,0.0956
369,0.095229
370,0.0952
371,0.095571
372,0.0964
373,0.094114
374,0.0944
375,0.095011
376,0.0937
377,0.093918
378,0.0938
379,0.094032
380,0.0953
381,0.096782
382,0.0968
383,0.096718
384,0.0979
385,0.099618
386,0.1
387,0.100357
388,0.102
389,0.104295
390,0.10425
391,0.10443
392,0.1074
393,0.109041
394,0.10935
395,0.109634
396,0.1112
397,0.112379
398,0.1122
399,0.112221
400,0.114
401,0.114902
402,0.11525
403,0.115673
404,0.1168
405,0.119457
406,0.1192
407,0.118893
408,0.1214
409,0.123479
410,0.1236
411,0.123896
412,0.1265
413,0.128041
414,0.12765
415,0.127159
416,0.1284
417,0.128341
418,0.12875
419,0.128909
420,0.1281
421,0.128091
422,0.12785
423,0.127634
424,0.1277
425,0.127864
426,0.1283
427,0.128761
428,0.129
429,0.129959
430,0.12985
431,0.129366
432,0.1292
433,0.127566
434,0.12745
435,0.127809
436,0.1276
437,0.124854
438,0.1247
439,0.124646
440,0.1222
441,0.119384
442,0.11935
443,0.119241
444,0.1162
445,0.111823
446,0.11165
447,0.111452
448,0.107
449,0.103071
450,0.103
451,0.103054
452,0.0995
453,0.097123
454,0.09695
455,0.096952
456,0.0951
457,0.094136
458,0.0941
459,0.094114
460,0.0933
461,0.092343
462,0.0925
463,0.092657
464,0.0917
465,0.090666
466,0.09075
467,0.090634
468,0.089
469,0.088259
470,0.08825
471,0.088166
472,0.0872
473,0.0852
474,0.0852
475,0.0853
476,0.0836
477,0.08197
478,0.08195
479,0.08188
480,0.0801
481,0.078536
482,0.0783
483,0.078214
484,0.0771
485,0.075614
486,0.0755
487,0.075511
488,0.0744
489,0.073577
490,0.07335
491,0.072923
492,0.0715
493,0.070534
494,0.07045
495,0.070191
496,0.0687
497,0.067298
498,0.06745
499,0.067352
500,0.0652
501,0.063127
502,0.06315
503,0.063173
504,0.0611
505,0.059555
506,0.05985
507,0.06002
508,0.0581
509,0.057062
510,0.05705
511,0.057088
512,0.0562
513,0.05435
514,0.0544
515,0.05445
516,0.0526
517,0.050975
518,0.0511
519,0.051225
520,0.0496
521,0.048859
522,0.04885
523,0.048666
524,0.0474
525,0.046146
526,0.0463
527,0.046504
528,0.0454
529,0.044661
530,0.0447
531,0.044664
532,0.0437
533,0.043855
534,0.04405
535,0.044245
536,0.0444
537,0.043584
538,0.04355
539,0.043466
540,0.0425
541,0.042137
542,0.04235
543,0.042288
544,0.0411
545,0.039912
546,0.03985
547,0.039838
548,0.0388
549,0.037616
550,0.03765
551,0.037709
552,0.0366
553,0.036161
554,0.0363
555,0.036339
556,0.0356
557,0.035234
558,0.03535
559,0.035241
560,0.0342
561,0.033089
562,0.0331
563,0.033161
564,0.0322
565,0.031834
566,0.03195
567,0.032016
568,0.0315
569,0.031059
570,0.03115
571,0.031241
572,0.0308
573,0.030286
574,0.0304
575,0.030514
576,0.03
577,0.029257
578,0.0292
579,0.029468
580,0.0297
581,0.029548
582,0.02945
583,0.029402
584,0.0294
585,0.029091
586,0.02875
587,0.028509
588,0.0285
589,0.028198
590,0.02805
591,0.028027
592,0.0281
593,0.027941
594,0.02765
595,0.027534
596,0.0279
597,0.028052
598,0.02815
599,0.028173
600,0.0281
601,0.028314
602,0.0281
603,0.028011
604,0.0286
605,0.028602
606,0.02865
607,0.028573
608,0.0282
609,0.028571
610,0.0286
611,0.028579
612,0.0288
613,0.029468
614,0.0295
615,0.029507
616,0.0301
617,0.030252
618,0.03035
619,0.030348
620,0.0302
621,0.030057
622,0.0302
623,0.030268
624,0.0299
625,0.030271
626,0.0303
627,0.030229
628,0.0303
629,0.030598
630,0.03065
631,0.030627
632,0.0307
633,0.030918
634,0.0308
635,0.030757
636,0.0312
637,0.031268
638,0.0311
639,0.031007
640,0.0313
641,0.031514
642,0.0313
643,0.031286
644,0.0321
645,0.032757
646,0.0325
647,0.032268
648,0.033
649,0.034036
650,0.034
651,0.033764
652,0.0342
653,0.035011
654,0.0349
655,0.035039
656,0.0366
657,0.038671
658,0.0386
659,0.038704
660,0.0413
661,0.044563
662,0.04465
663,0.044687
664,0.0478
665,0.050688
666,0.05065
667,0.050612
668,0.0535
669,0.05565
670,0.0557
671,0.055575
672,0.0572
673,0.058243
674,0.0584
675,0.058232
676,0.0583
677,0.057193
678,0.0573
679,0.057032
680,0.0548
681,0.051693
682,0.0518
683,0.051682
684,0.0479
685,0.043455
686,0.04345
687,0.04347
688,0.0391
689,0.035545
690,0.03555
691,0.03548
692,0.0317
693,0.028884
694,0.02885
695,0.029016
696,0.0268
697,0.024948
698,0.02495
699,0.024927
700,0.023
701,0.021743
702,0.0218
703,0.021832
704,0.0205
705,0.019016
706,0.01895
707,0.018859
708,0.0173
709,0.016189
710,0.0162
711,0.016161
712,0.0149
713,0.013643
714,0.0137
715,0.013607
716,0.0119
717,0.011382
718,0.0114
719,0.011268
720,0.0103
721,0.00993
722,0.00995
723,0.00997
724,0.0096
725,0.009386
726,0.0096
727,0.009639
728,0.0089
729,0.008389
730,0.0086
731,0.008611
732,0.0075
733,0.006541
734,0.00665
735,0.006834
736,0.0061
737,0.005432
738,0.0054
739,0.005418
740,0.0049
741,0.004382
742,0.0044
743,0.004568
744,0.0045
745,0.003095
746,0.00315
747,0.003205
748,0.0018
749,0.002168
750,0.0021
751,0.001957
752,0.0021
753,0.001216
754,0.00135
755,0.001684
756,0.0014
757,0.001484
758,0.00175
759,0.001716
760,0.0009
761,0.000748
762,0.00065
763,0.000677
764,0.0009
765,-0.000728
766,-0.0007
767,-0.000371
768,-0.0011
769,-0.001321
770,-0.0013
771,-0.001279
772,-0.0015
773,-0.000545
774,-0.00075
775,-0.000855
776,0.0004
777,0.000095
778,-0.00015
779,-0.00027
780,-0.0002
781,-0.001471
782,-0.0018
783,-0.001829
784,-0.0022
785,-0.001757
786,-0.0018
787,-0.002068
788,-0.0023
789,-0.000757
790,-0.0011
791,-0.001568
792,-0.0004
793,-0.000916
794,-0.00085
795,-0.000784
796,-0.0013
797,-0.000859
798,-0.00095
799,-0.001241
800,-0.0014
801,-0.001559
802,-0.001718
803,-0.001877
804,-0.002036
805,-0.002195
806,-0.002354
807,-0.002513
808,-0.002671
809,-0.00283
810,-0.002989
811,-0.003148
812,-0.003307
813,-0.003466
814,-0.003625
815,-0.003784
816,-0.003943
817,-0.004102
818,-0.004261
819,-0.00442
820,-0.004579
821,-0.004738
822,-0.004896
823,-0.005055
824,-0.005214
825,-0.005373
826,-0.005532
827,-0.005691
828,-0.00585
829,-0.006009
830,-0.006168
831,-0.006327
832,-0.006486
833,-0.006645
834,-0.006804
835,-0.006963
836,-0.007121
837,-0.00728
838,-0.007439
839,-0.007598
840,-0.007757
841,-0.007916
842,-0.008075
843,-0.008234
844,-0.008393
845,-0.008552
846,-0.008711
847,-0.00887
848,-0.009029
849,-0.009188
850,-0.009346
851,-0.009505
852,-0.009664
853,-0.009823
854,-0.009982
855,-0.010141
856,-0.0103
857,-0.010459
858,-0.010618
859,-0.010777
860,-0.010936
861,-0.011095
862,-0.011254
863,-0.011413
864,-0.011571
865,-0.01173
866,-0.011889
867,-0.012048
868,-0.012207
869,-0.012366
870,-0.012525
871,-0.012684
872,-0.012843
873,-0.013002
874,-0.013161
875,-0.01332
876,-0.013479
877,-0.013638
878,-0.013796
879,-0.013955
880,-0.014114
881,-0.014273
882,-0.014432
883,-0.014591
884,-0.01475
885,-0.014909
886,-0.015068
887,-0.015227
888,-0.015386
889,-0.015545
890,-0.015704
891,-0.015863
892,-0.016021
893,-0.01618
894,-0.016339
895,-0.016498
896,-0.016657
897,-0.016816
898,-0.016975
899,-0.017134
900,-0.017293
